vstim11,vstim10,vstim13,vstim12,vstim15,vstim14,vstim16,vstim1,mask,vstim9,vstim8,vstim5,vstim4,vstim7,vstim6,aprime,vstim3,vstim2,trials_4.thisRepN,trials_4.thisTrialN,trials_4.thisN,trials_4.thisIndex,trials_2.thisRepN,trials_2.thisTrialN,trials_2.thisN,trials_2.thisIndex,trials_3.thisRepN,trials_3.thisTrialN,trials_3.thisN,trials_3.thisIndex,key_resp_2.keys,key_resp_2.rt,instructStart,instructEnd,instructDur,isi,fixStart,primeStart,primeEnd,primeDur,chooseStart,chooseEnd,chooseDur,mouse.x,mouse.y,mouse.leftButton,mouse.midButton,mouse.rightButton,pic,buffer,resultStart,feedbkStart,image,resultEnd,resultDur,feedbkDur,targetStart,targetDur,date,frameRate,expName,session,participant
,,,,,,,,,,,,,,,,,,,,,,,,,,,,,,5,22.8851180077,,,,,,,,,,,,,,,,,,,,,,,,,,,2018_Jan_30_0936,29.9765722266,AudVis-Working,1,AudVis-01
stimuli/dog.png,stimuli/cuckooClock.png,stimuli/fireworks.png,stimuli/deskBell.png,stimuli/ghost.png,stimuli/cow.png,stimuli/harp.png,stimuli/cat.png,stimuli/square.png,stimuli/chimp.png,stimuli/carHorn.png,stimuli/bowling.png,stimuli/bird.png,stimuli/applause.png,stimuli/bugle.png,stimuli/bell.ogg,stimuli/bell.png,stimuli/baby.png,0,0,0,2,0,0,0,0,,,,,,,0,34.8973269463,34.8973259926,4,34.9047689438,40.901818037,42.9031629562,2.0013449192,42.9031829834,45.8890559673,2.98587298393,-0.097619047619,0.304761904762,0,0,0,,,,,,,,,,,2018_Jan_30_0936,29.9765722266,AudVis-Working,1,AudVis-01
stimuli/dog.png,stimuli/cuckooClock.png,stimuli/fireworks.png,stimuli/deskBell.png,stimuli/ghost.png,stimuli/cow.png,stimuli/harp.png,stimuli/cat.png,stimuli/square.png,stimuli/chimp.png,stimuli/carHorn.png,stimuli/bowling.png,stimuli/bird.png,stimuli/applause.png,stimuli/bugle.png,stimuli/bell.ogg,stimuli/bell.png,stimuli/baby.png,0,0,0,2,,,,,,,,,,,,,,,,,,,,,,,,,,,,1.01278209686,,,,,,,,,2018_Jan_30_0936,29.9765722266,AudVis-Working,1,AudVis-01
stimuli/dog.png,stimuli/cuckooClock.png,stimuli/fireworks.png,stimuli/deskBell.png,stimuli/ghost.png,stimuli/cow.png,stimuli/harp.png,stimuli/cat.png,stimuli/square.png,stimuli/chimp.png,stimuli/carHorn.png,stimuli/bowling.png,stimuli/bird.png,stimuli/applause.png,stimuli/bugle.png,stimuli/chimp.ogg,stimuli/bell.png,stimuli/baby.png,0,1,1,8,0,0,0,0,,,,,,,,,,2,47.8910689354,51.8949029446,53.8963241577,2.00142121315,53.8963429928,54.6137990952,0.717456102371,0.0785714285714,-0.264761904762,0,0,1,pic15,,,,,,,,,,2018_Jan_30_0936,29.9765722266,AudVis-Working,1,AudVis-01
stimuli/dog.png,stimuli/cuckooClock.png,stimuli/fireworks.png,stimuli/deskBell.png,stimuli/ghost.png,stimuli/cow.png,stimuli/harp.png,stimuli/cat.png,stimuli/square.png,stimuli/chimp.png,stimuli/carHorn.png,stimuli/bowling.png,stimuli/bird.png,stimuli/applause.png,stimuli/bugle.png,stimuli/chimp.ogg,stimuli/bell.png,stimuli/baby.png,0,1,1,8,,,,,,,,,,,,,,,,,,,,,,,,,,,,5.28112268448,,,,,,,,,2018_Jan_30_0936,29.9765722266,AudVis-Working,1,AudVis-01
stimuli/dog.png,stimuli/cuckooClock.png,stimuli/fireworks.png,stimuli/deskBell.png,stimuli/ghost.png,stimuli/cow.png,stimuli/harp.png,stimuli/cat.png,stimuli/square.png,stimuli/chimp.png,stimuli/carHorn.png,stimuli/bowling.png,stimuli/bird.png,stimuli/applause.png,stimuli/bugle.png,stimuli/bowling.ogg,stimuli/bell.png,stimuli/baby.png,0,2,2,4,,,,,0,0,0,0,,,,,,1,60.8841500282,63.885972023,65.8872570992,2.00128507614,65.8872759342,66.4045381546,0.517262220383,-0.144047619048,-0.32380952381,1,0,0,pic14,,66.4077920914,66.4077920914,cow,71.8919451237,5.4841530323,3,69.9077920914,2,2018_Jan_30_0936,29.9765722266,AudVis-Working,1,AudVis-01
stimuli/dog.png,stimuli/cuckooClock.png,stimuli/fireworks.png,stimuli/deskBell.png,stimuli/ghost.png,stimuli/cow.png,stimuli/harp.png,stimuli/cat.png,stimuli/square.png,stimuli/chimp.png,stimuli/carHorn.png,stimuli/bowling.png,stimuli/bird.png,stimuli/applause.png,stimuli/bugle.png,stimuli/bowling.ogg,stimuli/bell.png,stimuli/baby.png,0,2,2,4,,,,,,,,,,,,,,,,,,,,,,,,,,,,5.48145270348,,,,,,,,,2018_Jan_30_0936,29.9765722266,AudVis-Working,1,AudVis-01
stimuli/dog.png,stimuli/cuckooClock.png,stimuli/fireworks.png,stimuli/deskBell.png,stimuli/ghost.png,stimuli/cow.png,stimuli/harp.png,stimuli/cat.png,stimuli/square.png,stimuli/chimp.png,stimuli/carHorn.png,stimuli/bowling.png,stimuli/bird.png,stimuli/applause.png,stimuli/bugle.png,stimuli/bugle.ogg,stimuli/bell.png,stimuli/baby.png,0,3,3,5,,,,,0,0,0,0,,,,,,1,77.3634591103,80.3667111397,82.3666000366,1.99988889694,82.3666169643,83.4175021648,1.0508852005,0.303571428571,0.220952380952,1,0,0,pic8,,83.4209530354,83.4209530354,carHorn,88.9218511581,5.50089812279,3,86.9209530354,2,2018_Jan_30_0936,29.9765722266,AudVis-Working,1,AudVis-01
stimuli/dog.png,stimuli/cuckooClock.png,stimuli/fireworks.png,stimuli/deskBell.png,stimuli/ghost.png,stimuli/cow.png,stimuli/harp.png,stimuli/cat.png,stimuli/square.png,stimuli/chimp.png,stimuli/carHorn.png,stimuli/bowling.png,stimuli/bird.png,stimuli/applause.png,stimuli/bugle.png,stimuli/bugle.ogg,stimuli/bell.png,stimuli/baby.png,0,3,3,5,,,,,,,,,,,,,,,,,,,,,,,,,,,,4.94922590256,,,,,,,,,2018_Jan_30_0936,29.9765722266,AudVis-Working,1,AudVis-01
stimuli/dog.png,stimuli/cuckooClock.png,stimuli/fireworks.png,stimuli/deskBell.png,stimuli/ghost.png,stimuli/cow.png,stimuli/harp.png,stimuli/cat.png,stimuli/square.png,stimuli/chimp.png,stimuli/carHorn.png,stimuli/bowling.png,stimuli/bird.png,stimuli/applause.png,stimuli/bugle.png,stimuli/deskBell.ogg,stimuli/bell.png,stimuli/baby.png,0,4,4,11,,,,,0,0,0,0,,,,,,1,93.8593740463,96.8608379364,98.8623230457,2.00148510933,98.862347126,99.9482049942,1.08585786819,-0.255952380952,0.220952380952,1,0,0,pic5,,99.9511971474,99.9511971474,bowling,105.452219009,5.50102186203,3,103.451197147,2,2018_Jan_30_0936,29.9765722266,AudVis-Working,1,AudVis-01
stimuli/dog.png,stimuli/cuckooClock.png,stimuli/fireworks.png,stimuli/deskBell.png,stimuli/ghost.png,stimuli/cow.png,stimuli/harp.png,stimuli/cat.png,stimuli/square.png,stimuli/chimp.png,stimuli/carHorn.png,stimuli/bowling.png,stimuli/bird.png,stimuli/applause.png,stimuli/bugle.png,stimuli/deskBell.ogg,stimuli/bell.png,stimuli/baby.png,0,4,4,11,,,,,,,,,,,,,,,,,,,,,,,,,,,,4.91265702248,,,,,,,,,2018_Jan_30_0936,29.9765722266,AudVis-Working,1,AudVis-01
stimuli/dog.png,stimuli/cuckooClock.png,stimuli/fireworks.png,stimuli/deskBell.png,stimuli/ghost.png,stimuli/cow.png,stimuli/harp.png,stimuli/cat.png,stimuli/square.png,stimuli/chimp.png,stimuli/carHorn.png,stimuli/bowling.png,stimuli/bird.png,stimuli/applause.png,stimuli/bugle.png,stimuli/dog.ogg,stimuli/bell.png,stimuli/baby.png,0,5,5,10,,,,,0,0,0,0,,,,,,1,110.356492996,113.358376026,115.359405041,2.00102901459,115.359424114,117.511515141,2.15209102631,-0.263095238095,0.0857142857143,1,0,0,pic9,,117.514640093,117.514640093,chimp,123.015069962,5.5004298687,3,121.014640093,2,2018_Jan_30_0936,29.9765722266,AudVis-Working,1,AudVis-01
stimuli/dog.png,stimuli/cuckooClock.png,stimuli/fireworks.png,stimuli/deskBell.png,stimuli/ghost.png,stimuli/cow.png,stimuli/harp.png,stimuli/cat.png,stimuli/square.png,stimuli/chimp.png,stimuli/carHorn.png,stimuli/bowling.png,stimuli/bird.png,stimuli/applause.png,stimuli/bugle.png,stimuli/dog.ogg,stimuli/bell.png,stimuli/baby.png,0,5,5,10,,,,,,,,,,,,,,,,,,,,,,,,,,,,3.84687995911,,,,,,,,,2018_Jan_30_0936,29.9765722266,AudVis-Working,1,AudVis-01
stimuli/dog.png,stimuli/cuckooClock.png,stimuli/fireworks.png,stimuli/deskBell.png,stimuli/ghost.png,stimuli/cow.png,stimuli/harp.png,stimuli/cat.png,stimuli/square.png,stimuli/chimp.png,stimuli/carHorn.png,stimuli/bowling.png,stimuli/bird.png,stimuli/applause.png,stimuli/bugle.png,stimuli/ghost.ogg,stimuli/bell.png,stimuli/baby.png,0,6,6,14,,,,,0,0,0,0,,,,,,1,126.917418003,129.920774937,131.922152996,2.00137805939,131.92217207,134.274178028,2.35200595856,-0.311904761905,0.577142857143,1,0,0,pic1,,134.277215004,134.277215004,cat,139.778347969,5.50113296509,3,137.777215004,2,2018_Jan_30_0936,29.9765722266,AudVis-Working,1,AudVis-01
stimuli/dog.png,stimuli/cuckooClock.png,stimuli/fireworks.png,stimuli/deskBell.png,stimuli/ghost.png,stimuli/cow.png,stimuli/harp.png,stimuli/cat.png,stimuli/square.png,stimuli/chimp.png,stimuli/carHorn.png,stimuli/bowling.png,stimuli/bird.png,stimuli/applause.png,stimuli/bugle.png,stimuli/ghost.ogg,stimuli/bell.png,stimuli/baby.png,0,6,6,14,,,,,,,,,,,,,,,,,,,,,,,,,,,,3.64661598206,,,,,,,,,2018_Jan_30_0936,29.9765722266,AudVis-Working,1,AudVis-01
stimuli/dog.png,stimuli/cuckooClock.png,stimuli/fireworks.png,stimuli/deskBell.png,stimuli/ghost.png,stimuli/cow.png,stimuli/harp.png,stimuli/cat.png,stimuli/square.png,stimuli/chimp.png,stimuli/carHorn.png,stimuli/bowling.png,stimuli/bird.png,stimuli/applause.png,stimuli/bugle.png,stimuli/cuckooClock.ogg,stimuli/bell.png,stimuli/baby.png,0,7,7,9,,,,,0,0,0,0,,,,,,1,143.413468122,146.416635036,148.416715145,2.00008010864,148.416733027,151.135452986,2.71871995926,0.290476190476,0.550476190476,1,0,0,pic4,,151.138949156,151.138949156,bird,156.639780045,5.50083088875,3,154.638949156,2,2018_Jan_30_0936,29.9765722266,AudVis-Working,1,AudVis-01
stimuli/dog.png,stimuli/cuckooClock.png,stimuli/fireworks.png,stimuli/deskBell.png,stimuli/ghost.png,stimuli/cow.png,stimuli/harp.png,stimuli/cat.png,stimuli/square.png,stimuli/chimp.png,stimuli/carHorn.png,stimuli/bowling.png,stimuli/bird.png,stimuli/applause.png,stimuli/bugle.png,stimuli/cuckooClock.ogg,stimuli/bell.png,stimuli/baby.png,0,7,7,9,,,,,,,,,,,,,,,,,,,,,,,,,,,,3.2811999321,,,,,,,,,2018_Jan_30_0936,29.9765722266,AudVis-Working,1,AudVis-01
stimuli/dog.png,stimuli/cuckooClock.png,stimuli/fireworks.png,stimuli/deskBell.png,stimuli/ghost.png,stimuli/cow.png,stimuli/harp.png,stimuli/cat.png,stimuli/square.png,stimuli/chimp.png,stimuli/carHorn.png,stimuli/bowling.png,stimuli/bird.png,stimuli/applause.png,stimuli/bugle.png,stimuli/baby.ogg,stimuli/bell.png,stimuli/baby.png,0,8,8,1,,,,,0,0,0,0,,,,,,3,159.909362078,164.912601948,166.913975954,2.00137400627,166.913995028,167.900264978,0.986269950867,0.102380952381,0.0304761904762,1,0,0,pic11,,167.903553009,167.903553009,dog,173.403526068,5.4999730587,3,171.403553009,2,2018_Jan_30_0936,29.9765722266,AudVis-Working,1,AudVis-01
stimuli/dog.png,stimuli/cuckooClock.png,stimuli/fireworks.png,stimuli/deskBell.png,stimuli/ghost.png,stimuli/cow.png,stimuli/harp.png,stimuli/cat.png,stimuli/square.png,stimuli/chimp.png,stimuli/carHorn.png,stimuli/bowling.png,stimuli/bird.png,stimuli/applause.png,stimuli/bugle.png,stimuli/baby.ogg,stimuli/bell.png,stimuli/baby.png,0,8,8,1,,,,,,,,,,,,,,,,,,,,,,,,,,,,3.01235604286,,,,,,,,,2018_Jan_30_0936,29.9765722266,AudVis-Working,1,AudVis-01
stimuli/dog.png,stimuli/cuckooClock.png,stimuli/fireworks.png,stimuli/deskBell.png,stimuli/ghost.png,stimuli/cow.png,stimuli/harp.png,stimuli/cat.png,stimuli/square.png,stimuli/chimp.png,stimuli/carHorn.png,stimuli/bowling.png,stimuli/bird.png,stimuli/applause.png,stimuli/bugle.png,stimuli/fireworks.ogg,stimuli/bell.png,stimuli/baby.png,0,9,9,12,,,,,0,0,0,0,,,,,,3,176.405071974,181.408282995,183.411049128,2.00276613235,183.411067963,184.894386053,1.48331809044,0.12619047619,-0.300952380952,1,0,0,pic15,,184.897711039,184.897711039,ghost,190.398638964,5.50092792511,3,188.397711039,2,2018_Jan_30_0936,29.9765722266,AudVis-Working,1,AudVis-01
stimuli/dog.png,stimuli/cuckooClock.png,stimuli/fireworks.png,stimuli/deskBell.png,stimuli/ghost.png,stimuli/cow.png,stimuli/harp.png,stimuli/cat.png,stimuli/square.png,stimuli/chimp.png,stimuli/carHorn.png,stimuli/bowling.png,stimuli/bird.png,stimuli/applause.png,stimuli/bugle.png,stimuli/fireworks.ogg,stimuli/bell.png,stimuli/baby.png,0,9,9,12,,,,,,,,,,,,,,,,,,,,,,,,,,,,2.51391577721,,,,,,,,,2018_Jan_30_0936,29.9765722266,AudVis-Working,1,AudVis-01
stimuli/dog.png,stimuli/cuckooClock.png,stimuli/fireworks.png,stimuli/deskBell.png,stimuli/ghost.png,stimuli/cow.png,stimuli/harp.png,stimuli/cat.png,stimuli/square.png,stimuli/chimp.png,stimuli/carHorn.png,stimuli/bowling.png,stimuli/bird.png,stimuli/applause.png,stimuli/bugle.png,stimuli/carHorn.ogg,stimuli/bell.png,stimuli/baby.png,0,10,10,7,,,,,0,0,0,0,,,,,,1,192.90093112,195.903152943,197.904078007,2.00092506409,197.904098034,200.556425095,2.6523270607,-0.317857142857,0.0114285714286,1,0,0,pic9,,200.559527159,200.559527159,chimp,206.061933994,5.50240683556,3,204.059527159,2,2018_Jan_30_0936,29.9765722266,AudVis-Working,1,AudVis-01
stimuli/dog.png,stimuli/cuckooClock.png,stimuli/fireworks.png,stimuli/deskBell.png,stimuli/ghost.png,stimuli/cow.png,stimuli/harp.png,stimuli/cat.png,stimuli/square.png,stimuli/chimp.png,stimuli/carHorn.png,stimuli/bowling.png,stimuli/bird.png,stimuli/applause.png,stimuli/bugle.png,stimuli/carHorn.ogg,stimuli/bell.png,stimuli/baby.png,0,10,10,7,,,,,,,,,,,,,,,,,,,,,,,,,,,,3.34674787521,,,,,,,,,2018_Jan_30_0936,29.9765722266,AudVis-Working,1,AudVis-01
stimuli/dog.png,stimuli/cuckooClock.png,stimuli/fireworks.png,stimuli/deskBell.png,stimuli/ghost.png,stimuli/cow.png,stimuli/harp.png,stimuli/cat.png,stimuli/square.png,stimuli/chimp.png,stimuli/carHorn.png,stimuli/bowling.png,stimuli/bird.png,stimuli/applause.png,stimuli/bugle.png,stimuli/cow.ogg,stimuli/bell.png,stimuli/baby.png,0,11,11,13,0,0,0,0,,,,,,,,,,2,209.396759987,213.399276972,215.402169943,2.00289297104,215.402189016,218.386865139,2.98467612267,0.135714285714,0.514285714286,0,0,0,pic9,,,,,,,,,,2018_Jan_30_0936,29.9765722266,AudVis-Working,1,AudVis-01
stimuli/dog.png,stimuli/cuckooClock.png,stimuli/fireworks.png,stimuli/deskBell.png,stimuli/ghost.png,stimuli/cow.png,stimuli/harp.png,stimuli/cat.png,stimuli/square.png,stimuli/chimp.png,stimuli/carHorn.png,stimuli/bowling.png,stimuli/bird.png,stimuli/applause.png,stimuli/bugle.png,stimuli/cow.ogg,stimuli/bell.png,stimuli/baby.png,0,11,11,13,,,,,,,,,,,,,,,,,,,,,,,,,,,,2.0124309063,,,,,,,,,2018_Jan_30_0936,29.9765722266,AudVis-Working,1,AudVis-01
stimuli/dog.png,stimuli/cuckooClock.png,stimuli/fireworks.png,stimuli/deskBell.png,stimuli/ghost.png,stimuli/cow.png,stimuli/harp.png,stimuli/cat.png,stimuli/square.png,stimuli/chimp.png,stimuli/carHorn.png,stimuli/bowling.png,stimuli/bird.png,stimuli/applause.png,stimuli/bugle.png,stimuli/applause.ogg,stimuli/bell.png,stimuli/baby.png,0,12,12,6,,,,,0,0,0,0,,,,,,4,221.372581005,227.378008127,229.379575968,2.00156784058,229.379601002,231.796617031,2.41701602936,-0.27380952381,-0.291428571429,1,0,0,pic13,,231.799860954,231.799860954,fireworks,237.300740004,5.5008790493,3,235.299860954,2,2018_Jan_30_0936,29.9765722266,AudVis-Working,1,AudVis-01
stimuli/dog.png,stimuli/cuckooClock.png,stimuli/fireworks.png,stimuli/deskBell.png,stimuli/ghost.png,stimuli/cow.png,stimuli/harp.png,stimuli/cat.png,stimuli/square.png,stimuli/chimp.png,stimuli/carHorn.png,stimuli/bowling.png,stimuli/bird.png,stimuli/applause.png,stimuli/bugle.png,stimuli/applause.ogg,stimuli/bell.png,stimuli/baby.png,0,12,12,6,,,,,,,,,,,,,,,,,,,,,,,,,,,,0.581416130066,,,,,,,,,2018_Jan_30_0936,29.9765722266,AudVis-Working,1,AudVis-01
stimuli/dog.png,stimuli/cuckooClock.png,stimuli/fireworks.png,stimuli/deskBell.png,stimuli/ghost.png,stimuli/cow.png,stimuli/harp.png,stimuli/cat.png,stimuli/square.png,stimuli/chimp.png,stimuli/carHorn.png,stimuli/bowling.png,stimuli/bird.png,stimuli/applause.png,stimuli/bugle.png,stimuli/cat.ogg,stimuli/bell.png,stimuli/baby.png,0,13,13,0,,,,,0,0,0,0,,,,,,3,237.868378162,242.873054028,244.873245001,2.00019097328,244.873265028,246.658094168,1.78482913971,-0.330952380952,0.262857142857,1,0,0,pic5,,246.661200047,246.661200047,bowling,252.145308018,5.48410797119,3,250.161200047,2,2018_Jan_30_0936,29.9765722266,AudVis-Working,1,AudVis-01
stimuli/dog.png,stimuli/cuckooClock.png,stimuli/fireworks.png,stimuli/deskBell.png,stimuli/ghost.png,stimuli/cow.png,stimuli/harp.png,stimuli/cat.png,stimuli/square.png,stimuli/chimp.png,stimuli/carHorn.png,stimuli/bowling.png,stimuli/bird.png,stimuli/applause.png,stimuli/bugle.png,stimuli/cat.ogg,stimuli/bell.png,stimuli/baby.png,0,13,13,0,,,,,,,,,,,,,,,,,,,,,,,,,,,,2.21497988701,,,,,,,,,2018_Jan_30_0936,29.9765722266,AudVis-Working,1,AudVis-01
stimuli/dog.png,stimuli/cuckooClock.png,stimuli/fireworks.png,stimuli/deskBell.png,stimuli/ghost.png,stimuli/cow.png,stimuli/harp.png,stimuli/cat.png,stimuli/square.png,stimuli/chimp.png,stimuli/carHorn.png,stimuli/bowling.png,stimuli/bird.png,stimuli/applause.png,stimuli/bugle.png,stimuli/harp.ogg,stimuli/bell.png,stimuli/baby.png,0,14,14,15,,,,,0,0,0,0,,,,,,2,254.347602129,258.350048065,260.351915121,2.00186705589,260.351935148,262.803589106,2.45165395737,0.278571428571,-0.0438095238095,1,0,0,pic12,,262.807078123,262.807078123,deskBell,268.307672977,5.50059485435,3,266.307078123,2,2018_Jan_30_0936,29.9765722266,AudVis-Working,1,AudVis-01
stimuli/dog.png,stimuli/cuckooClock.png,stimuli/fireworks.png,stimuli/deskBell.png,stimuli/ghost.png,stimuli/cow.png,stimuli/harp.png,stimuli/cat.png,stimuli/square.png,stimuli/chimp.png,stimuli/carHorn.png,stimuli/bowling.png,stimuli/bird.png,stimuli/applause.png,stimuli/bugle.png,stimuli/harp.ogg,stimuli/bell.png,stimuli/baby.png,0,14,14,15,,,,,,,,,,,,,,,,,,,,,,,,,,,,2.54647898674,,,,,,,,,2018_Jan_30_0936,29.9765722266,AudVis-Working,1,AudVis-01
stimuli/dog.png,stimuli/cuckooClock.png,stimuli/fireworks.png,stimuli/deskBell.png,stimuli/ghost.png,stimuli/cow.png,stimuli/harp.png,stimuli/cat.png,stimuli/square.png,stimuli/chimp.png,stimuli/carHorn.png,stimuli/bowling.png,stimuli/bird.png,stimuli/applause.png,stimuli/bugle.png,stimuli/bird.ogg,stimuli/bell.png,stimuli/baby.png,0,15,15,3,0,0,0,0,,,,,,,,,,1,270.844928026,273.8465271,275.846619129,2.00009202957,275.846635103,278.834066153,2.98743104935,0.0845238095238,0.548571428571,0,0,0,pic12,,,,,,,,,,2018_Jan_30_0936,29.9765722266,AudVis-Working,1,AudVis-01
stimuli/dog.png,stimuli/cuckooClock.png,stimuli/fireworks.png,stimuli/deskBell.png,stimuli/ghost.png,stimuli/cow.png,stimuli/harp.png,stimuli/cat.png,stimuli/square.png,stimuli/chimp.png,stimuli/carHorn.png,stimuli/bowling.png,stimuli/bird.png,stimuli/applause.png,stimuli/bugle.png,stimuli/bird.ogg,stimuli/bell.png,stimuli/baby.png,0,15,15,3,,,,,,,,,,,,,,,,,,,,,,,,,,,,3.01247692108,,,,,,,,,2018_Jan_30_0936,29.9765722266,AudVis-Working,1,AudVis-01
stimuli/dog.png,stimuli/cuckooClock.png,stimuli/fireworks.png,stimuli/deskBell.png,stimuli/ghost.png,stimuli/cow.png,stimuli/harp.png,stimuli/cat.png,stimuli/square.png,stimuli/chimp.png,stimuli/carHorn.png,stimuli/bowling.png,stimuli/bird.png,stimuli/applause.png,stimuli/bugle.png,stimuli/cat.ogg,stimuli/bell.png,stimuli/baby.png,1,0,16,0,,,,,0,0,0,0,,,,,,4,282.820557117,288.82465601,290.824525118,1.9998691082,290.824542046,292.744425058,1.91988301277,-0.286904761905,0.0304761904762,1,0,0,pic9,,292.747414112,292.747414112,chimp,298.248471022,5.50105690956,3,296.247414112,2,2018_Jan_30_0936,29.9765722266,AudVis-Working,1,AudVis-01
stimuli/dog.png,stimuli/cuckooClock.png,stimuli/fireworks.png,stimuli/deskBell.png,stimuli/ghost.png,stimuli/cow.png,stimuli/harp.png,stimuli/cat.png,stimuli/square.png,stimuli/chimp.png,stimuli/carHorn.png,stimuli/bowling.png,stimuli/bird.png,stimuli/applause.png,stimuli/bugle.png,stimuli/cat.ogg,stimuli/bell.png,stimuli/baby.png,1,0,16,0,,,,,,,,,,,,,,,,,,,,,,,,,,,,1.08024787903,,,,,,,,,2018_Jan_30_0936,29.9765722266,AudVis-Working,1,AudVis-01
stimuli/dog.png,stimuli/cuckooClock.png,stimuli/fireworks.png,stimuli/deskBell.png,stimuli/ghost.png,stimuli/cow.png,stimuli/harp.png,stimuli/cat.png,stimuli/square.png,stimuli/chimp.png,stimuli/carHorn.png,stimuli/bowling.png,stimuli/bird.png,stimuli/applause.png,stimuli/bugle.png,stimuli/cow.ogg,stimuli/bell.png,stimuli/baby.png,1,1,17,13,,,,,0,0,0,0,,,,,,4,299.316470146,305.318935156,307.320318937,2.00138378143,307.320353031,310.206217051,2.88586401939,0.0761904761905,0.0285714285714,1,0,0,pic11,,310.209608078,310.209608078,dog,315.710430145,5.50082206726,3,313.709608078,2,2018_Jan_30_0936,29.9765722266,AudVis-Working,1,AudVis-01
stimuli/dog.png,stimuli/cuckooClock.png,stimuli/fireworks.png,stimuli/deskBell.png,stimuli/ghost.png,stimuli/cow.png,stimuli/harp.png,stimuli/cat.png,stimuli/square.png,stimuli/chimp.png,stimuli/carHorn.png,stimuli/bowling.png,stimuli/bird.png,stimuli/applause.png,stimuli/bugle.png,stimuli/cow.ogg,stimuli/bell.png,stimuli/baby.png,1,1,17,13,,,,,,,,,,,,,,,,,,,,,,,,,,,,0.112752199173,,,,,,,,,2018_Jan_30_0936,29.9765722266,AudVis-Working,1,AudVis-01
stimuli/dog.png,stimuli/cuckooClock.png,stimuli/fireworks.png,stimuli/deskBell.png,stimuli/ghost.png,stimuli/cow.png,stimuli/harp.png,stimuli/cat.png,stimuli/square.png,stimuli/chimp.png,stimuli/carHorn.png,stimuli/bowling.png,stimuli/bird.png,stimuli/applause.png,stimuli/bugle.png,stimuli/bugle.ogg,stimuli/bell.png,stimuli/baby.png,1,2,18,5,,,,,0,0,0,0,,,,,,1,315.810954094,318.814008951,320.814026117,2.00001716614,320.814046144,323.399431944,2.58538579941,-0.0857142857143,0.0742857142857,1,0,0,pic10,,323.402685165,323.402685165,cuckooClock,328.888478994,5.48579382896,3,326.902685165,2,2018_Jan_30_0936,29.9765722266,AudVis-Working,1,AudVis-01
stimuli/dog.png,stimuli/cuckooClock.png,stimuli/fireworks.png,stimuli/deskBell.png,stimuli/ghost.png,stimuli/cow.png,stimuli/harp.png,stimuli/cat.png,stimuli/square.png,stimuli/chimp.png,stimuli/carHorn.png,stimuli/bowling.png,stimuli/bird.png,stimuli/applause.png,stimuli/bugle.png,stimuli/bugle.ogg,stimuli/bell.png,stimuli/baby.png,1,2,18,5,,,,,,,,,,,,,,,,,,,,,,,,,,,,3.41459703445,,,,,,,,,2018_Jan_30_0936,29.9765722266,AudVis-Working,1,AudVis-01
stimuli/dog.png,stimuli/cuckooClock.png,stimuli/fireworks.png,stimuli/deskBell.png,stimuli/ghost.png,stimuli/cow.png,stimuli/harp.png,stimuli/cat.png,stimuli/square.png,stimuli/chimp.png,stimuli/carHorn.png,stimuli/bowling.png,stimuli/bird.png,stimuli/applause.png,stimuli/bugle.png,stimuli/chimp.ogg,stimuli/bell.png,stimuli/baby.png,1,3,19,8,,,,,0,0,0,0,,,,,,4,332.291607141,338.294024944,340.29676199,2.00273704529,340.296781063,341.145913124,0.849132061005,-0.292857142857,0.0685714285714,1,0,0,pic9,,341.149024963,341.149024963,chimp,346.650496006,5.50147104263,3,344.649024963,2,2018_Jan_30_0936,29.9765722266,AudVis-Working,1,AudVis-01
stimuli/dog.png,stimuli/cuckooClock.png,stimuli/fireworks.png,stimuli/deskBell.png,stimuli/ghost.png,stimuli/cow.png,stimuli/harp.png,stimuli/cat.png,stimuli/square.png,stimuli/chimp.png,stimuli/carHorn.png,stimuli/bowling.png,stimuli/bird.png,stimuli/applause.png,stimuli/bugle.png,stimuli/chimp.ogg,stimuli/bell.png,stimuli/baby.png,1,3,19,8,,,,,,,,,,,,,,,,,,,,,,,,,,,,2.14813089371,,,,,,,,,2018_Jan_30_0936,29.9765722266,AudVis-Working,1,AudVis-01
stimuli/dog.png,stimuli/cuckooClock.png,stimuli/fireworks.png,stimuli/deskBell.png,stimuli/ghost.png,stimuli/cow.png,stimuli/harp.png,stimuli/cat.png,stimuli/square.png,stimuli/chimp.png,stimuli/carHorn.png,stimuli/bowling.png,stimuli/bird.png,stimuli/applause.png,stimuli/bugle.png,stimuli/harp.ogg,stimuli/bell.png,stimuli/baby.png,1,4,20,15,0,0,0,0,,,,,,,,,,1,348.785990953,351.789014101,353.789040089,2.00002598763,353.789059162,356.776251078,2.98719191551,0.0488095238095,-0.0495238095238,0,0,0,pic9,,,,,,,,,,2018_Jan_30_0936,29.9765722266,AudVis-Working,1,AudVis-01
stimuli/dog.png,stimuli/cuckooClock.png,stimuli/fireworks.png,stimuli/deskBell.png,stimuli/ghost.png,stimuli/cow.png,stimuli/harp.png,stimuli/cat.png,stimuli/square.png,stimuli/chimp.png,stimuli/carHorn.png,stimuli/bowling.png,stimuli/bird.png,stimuli/applause.png,stimuli/bugle.png,stimuli/harp.ogg,stimuli/bell.png,stimuli/baby.png,1,4,20,15,,,,,,,,,,,,,,,,,,,,,,,,,,,,3.01278209686,,,,,,,,,2018_Jan_30_0936,29.9765722266,AudVis-Working,1,AudVis-01
stimuli/dog.png,stimuli/cuckooClock.png,stimuli/fireworks.png,stimuli/deskBell.png,stimuli/ghost.png,stimuli/cow.png,stimuli/harp.png,stimuli/cat.png,stimuli/square.png,stimuli/chimp.png,stimuli/carHorn.png,stimuli/bowling.png,stimuli/bird.png,stimuli/applause.png,stimuli/bugle.png,stimuli/cuckooClock.ogg,stimuli/bell.png,stimuli/baby.png,1,5,21,9,,,,,0,0,0,0,,,,,,3,360.779809952,365.782920122,367.784348965,2.00142884254,367.784379959,369.601331949,1.81695199013,-0.119047619048,0.0361904761905,1,0,0,pic10,,369.604588985,369.604588985,cuckooClock,375.088753939,5.48416495323,3,373.104588985,2,2018_Jan_30_0936,29.9765722266,AudVis-Working,1,AudVis-01
stimuli/dog.png,stimuli/cuckooClock.png,stimuli/fireworks.png,stimuli/deskBell.png,stimuli/ghost.png,stimuli/cow.png,stimuli/harp.png,stimuli/cat.png,stimuli/square.png,stimuli/chimp.png,stimuli/carHorn.png,stimuli/bowling.png,stimuli/bird.png,stimuli/applause.png,stimuli/bugle.png,stimuli/cuckooClock.ogg,stimuli/bell.png,stimuli/baby.png,1,5,21,9,,,,,,,,,,,,,,,,,,,,,,,,,,,,2.18161916733,,,,,,,,,2018_Jan_30_0936,29.9765722266,AudVis-Working,1,AudVis-01
stimuli/dog.png,stimuli/cuckooClock.png,stimuli/fireworks.png,stimuli/deskBell.png,stimuli/ghost.png,stimuli/cow.png,stimuli/harp.png,stimuli/cat.png,stimuli/square.png,stimuli/chimp.png,stimuli/carHorn.png,stimuli/bowling.png,stimuli/bird.png,stimuli/applause.png,stimuli/bugle.png,stimuli/ghost.ogg,stimuli/bell.png,stimuli/baby.png,1,6,22,14,,,,,0,0,0,0,,,,,,3,377.257565022,382.260601044,384.262015104,2.00141406059,384.262035131,385.413325071,1.15128993988,0.0690476190476,-0.28,1,0,0,pic15,,385.416604042,385.416604042,ghost,390.900994062,5.48439002037,3,388.916604042,2,2018_Jan_30_0936,29.9765722266,AudVis-Working,1,AudVis-01
stimuli/dog.png,stimuli/cuckooClock.png,stimuli/fireworks.png,stimuli/deskBell.png,stimuli/ghost.png,stimuli/cow.png,stimuli/harp.png,stimuli/cat.png,stimuli/square.png,stimuli/chimp.png,stimuli/carHorn.png,stimuli/bowling.png,stimuli/bird.png,stimuli/applause.png,stimuli/bugle.png,stimuli/ghost.ogg,stimuli/bell.png,stimuli/baby.png,1,6,22,14,,,,,,,,,,,,,,,,,,,,,,,,,,,,2.84729599953,,,,,,,,,2018_Jan_30_0936,29.9765722266,AudVis-Working,1,AudVis-01
stimuli/dog.png,stimuli/cuckooClock.png,stimuli/fireworks.png,stimuli/deskBell.png,stimuli/ghost.png,stimuli/cow.png,stimuli/harp.png,stimuli/cat.png,stimuli/square.png,stimuli/chimp.png,stimuli/carHorn.png,stimuli/bowling.png,stimuli/bird.png,stimuli/applause.png,stimuli/bugle.png,stimuli/dog.ogg,stimuli/bell.png,stimuli/baby.png,1,7,23,10,,,,,0,0,0,0,,,,,,2,393.736684084,397.740604162,399.741930962,2.00132679939,399.741950035,401.391932964,1.64998292923,0.157142857143,-0.0342857142857,1,0,0,pic11,,401.395318985,401.395318985,dog,406.880923033,5.48560404778,3,404.895318985,2,2018_Jan_30_0936,29.9765722266,AudVis-Working,1,AudVis-01
stimuli/dog.png,stimuli/cuckooClock.png,stimuli/fireworks.png,stimuli/deskBell.png,stimuli/ghost.png,stimuli/cow.png,stimuli/harp.png,stimuli/cat.png,stimuli/square.png,stimuli/chimp.png,stimuli/carHorn.png,stimuli/bowling.png,stimuli/bird.png,stimuli/applause.png,stimuli/bugle.png,stimuli/dog.ogg,stimuli/bell.png,stimuli/baby.png,1,7,23,10,,,,,,,,,,,,,,,,,,,,,,,,,,,,3.34869027138,,,,,,,,,2018_Jan_30_0936,29.9765722266,AudVis-Working,1,AudVis-01
stimuli/dog.png,stimuli/cuckooClock.png,stimuli/fireworks.png,stimuli/deskBell.png,stimuli/ghost.png,stimuli/cow.png,stimuli/harp.png,stimuli/cat.png,stimuli/square.png,stimuli/chimp.png,stimuli/carHorn.png,stimuli/bowling.png,stimuli/bird.png,stimuli/applause.png,stimuli/bugle.png,stimuli/bell.ogg,stimuli/bell.png,stimuli/baby.png,1,8,24,2,0,0,0,0,,,,,,,,,,1,410.217187166,413.217620134,415.218834162,2.0012140274,415.218852997,418.204779148,2.98592615128,0.0738095238095,0.358095238095,0,0,0,pic11,,,,,,,,,,2018_Jan_30_0936,29.9765722266,AudVis-Working,1,AudVis-01
stimuli/dog.png,stimuli/cuckooClock.png,stimuli/fireworks.png,stimuli/deskBell.png,stimuli/ghost.png,stimuli/cow.png,stimuli/harp.png,stimuli/cat.png,stimuli/square.png,stimuli/chimp.png,stimuli/carHorn.png,stimuli/bowling.png,stimuli/bird.png,stimuli/applause.png,stimuli/bugle.png,stimuli/bell.ogg,stimuli/bell.png,stimuli/baby.png,1,8,24,2,,,,,,,,,,,,,,,,,,,,,,,,,,,,3.01285982132,,,,,,,,,2018_Jan_30_0936,29.9765722266,AudVis-Working,1,AudVis-01
stimuli/dog.png,stimuli/cuckooClock.png,stimuli/fireworks.png,stimuli/deskBell.png,stimuli/ghost.png,stimuli/cow.png,stimuli/harp.png,stimuli/cat.png,stimuli/square.png,stimuli/chimp.png,stimuli/carHorn.png,stimuli/bowling.png,stimuli/bird.png,stimuli/applause.png,stimuli/bugle.png,stimuli/deskBell.ogg,stimuli/bell.png,stimuli/baby.png,1,9,25,11,,,,,0,0,0,0,,,,,,1,422.198928118,425.199357986,427.194354057,1.99499607086,427.194373131,428.497221947,1.30284881592,0.261904761905,-0.0133333333333,1,0,0,pic12,,428.500642061,428.500642061,deskBell,434.000174999,5.499532938,3,432.000642061,2,2018_Jan_30_0936,29.9765722266,AudVis-Working,1,AudVis-01
stimuli/dog.png,stimuli/cuckooClock.png,stimuli/fireworks.png,stimuli/deskBell.png,stimuli/ghost.png,stimuli/cow.png,stimuli/harp.png,stimuli/cat.png,stimuli/square.png,stimuli/chimp.png,stimuli/carHorn.png,stimuli/bowling.png,stimuli/bird.png,stimuli/applause.png,stimuli/bugle.png,stimuli/deskBell.ogg,stimuli/bell.png,stimuli/baby.png,1,9,25,11,,,,,,,,,,,,,,,,,,,,,,,,,,,,4.70215511322,,,,,,,,,2018_Jan_30_0936,29.9765722266,AudVis-Working,1,AudVis-01
stimuli/dog.png,stimuli/cuckooClock.png,stimuli/fireworks.png,stimuli/deskBell.png,stimuli/ghost.png,stimuli/cow.png,stimuli/harp.png,stimuli/cat.png,stimuli/square.png,stimuli/chimp.png,stimuli/carHorn.png,stimuli/bowling.png,stimuli/bird.png,stimuli/applause.png,stimuli/bugle.png,stimuli/bowling.ogg,stimuli/bell.png,stimuli/baby.png,1,10,26,4,,,,,0,0,0,0,,,,,,4,438.705553055,444.708093166,446.710623026,2.00252985954,446.710644007,448.094139099,1.38349509239,-0.288095238095,-0.255238095238,1,0,0,pic13,,448.097288132,448.097288132,fireworks,453.58310008,5.48581194878,3,451.597288132,2,2018_Jan_30_0936,29.9765722266,AudVis-Working,1,AudVis-01
stimuli/dog.png,stimuli/cuckooClock.png,stimuli/fireworks.png,stimuli/deskBell.png,stimuli/ghost.png,stimuli/cow.png,stimuli/harp.png,stimuli/cat.png,stimuli/square.png,stimuli/chimp.png,stimuli/carHorn.png,stimuli/bowling.png,stimuli/bird.png,stimuli/applause.png,stimuli/bugle.png,stimuli/bowling.ogg,stimuli/bell.png,stimuli/baby.png,1,10,26,4,,,,,,,,,,,,,,,,,,,,,,,,,,,,1.61397504807,,,,,,,,,2018_Jan_30_0936,29.9765722266,AudVis-Working,1,AudVis-01
stimuli/dog.png,stimuli/cuckooClock.png,stimuli/fireworks.png,stimuli/deskBell.png,stimuli/ghost.png,stimuli/cow.png,stimuli/harp.png,stimuli/cat.png,stimuli/square.png,stimuli/chimp.png,stimuli/carHorn.png,stimuli/bowling.png,stimuli/bird.png,stimuli/applause.png,stimuli/bugle.png,stimuli/fireworks.ogg,stimuli/bell.png,stimuli/baby.png,1,11,27,12,,,,,0,0,0,0,,,,,,2,455.183238029,459.18732214,461.18880105,2.00147891045,461.188820124,462.506677151,1.31785702705,-0.265476190476,-0.325714285714,1,0,0,pic13,,462.509727955,462.509727955,fireworks,468.010682106,5.50095415115,3,466.009727955,2,2018_Jan_30_0936,29.9765722266,AudVis-Working,1,AudVis-01
stimuli/dog.png,stimuli/cuckooClock.png,stimuli/fireworks.png,stimuli/deskBell.png,stimuli/ghost.png,stimuli/cow.png,stimuli/harp.png,stimuli/cat.png,stimuli/square.png,stimuli/chimp.png,stimuli/carHorn.png,stimuli/bowling.png,stimuli/bird.png,stimuli/applause.png,stimuli/bugle.png,stimuli/fireworks.ogg,stimuli/bell.png,stimuli/baby.png,1,11,27,12,,,,,,,,,,,,,,,,,,,,,,,,,,,,3.6806640625,,,,,,,,,2018_Jan_30_0936,29.9765722266,AudVis-Working,1,AudVis-01
stimuli/dog.png,stimuli/cuckooClock.png,stimuli/fireworks.png,stimuli/deskBell.png,stimuli/ghost.png,stimuli/cow.png,stimuli/harp.png,stimuli/cat.png,stimuli/square.png,stimuli/chimp.png,stimuli/carHorn.png,stimuli/bowling.png,stimuli/bird.png,stimuli/applause.png,stimuli/bugle.png,stimuli/baby.ogg,stimuli/bell.png,stimuli/baby.png,1,12,28,1,,,,,0,0,0,0,,,,,,2,471.680513144,475.682994127,477.683110952,2.0001168251,477.68313098,478.6687181,0.985587120056,-0.0940476190476,0.340952380952,1,0,0,pic6,,478.671976089,478.671976089,bugle,484.154855013,5.48287892342,3,482.171976089,2,2018_Jan_30_0936,29.9765722266,AudVis-Working,1,AudVis-01
stimuli/dog.png,stimuli/cuckooClock.png,stimuli/fireworks.png,stimuli/deskBell.png,stimuli/ghost.png,stimuli/cow.png,stimuli/harp.png,stimuli/cat.png,stimuli/square.png,stimuli/chimp.png,stimuli/carHorn.png,stimuli/bowling.png,stimuli/bird.png,stimuli/applause.png,stimuli/bugle.png,stimuli/baby.ogg,stimuli/bell.png,stimuli/baby.png,1,12,28,1,,,,,,,,,,,,,,,,,,,,,,,,,,,,4.01429605484,,,,,,,,,2018_Jan_30_0936,29.9765722266,AudVis-Working,1,AudVis-01
stimuli/dog.png,stimuli/cuckooClock.png,stimuli/fireworks.png,stimuli/deskBell.png,stimuli/ghost.png,stimuli/cow.png,stimuli/harp.png,stimuli/cat.png,stimuli/square.png,stimuli/chimp.png,stimuli/carHorn.png,stimuli/bowling.png,stimuli/bird.png,stimuli/applause.png,stimuli/bugle.png,stimuli/applause.ogg,stimuli/bell.png,stimuli/baby.png,1,13,29,6,,,,,0,0,0,0,,,,,,4,488.159840107,494.163619041,496.163712025,2.00009298325,496.163732052,498.884043932,2.72031188011,-0.0559523809524,0.617142857143,1,0,0,pic2,,498.887203932,498.887203932,baby,504.386811018,5.49960708618,3,502.387203932,2,2018_Jan_30_0936,29.9765722266,AudVis-Working,1,AudVis-01
stimuli/dog.png,stimuli/cuckooClock.png,stimuli/fireworks.png,stimuli/deskBell.png,stimuli/ghost.png,stimuli/cow.png,stimuli/harp.png,stimuli/cat.png,stimuli/square.png,stimuli/chimp.png,stimuli/carHorn.png,stimuli/bowling.png,stimuli/bird.png,stimuli/applause.png,stimuli/bugle.png,stimuli/applause.ogg,stimuli/bell.png,stimuli/baby.png,1,13,29,6,,,,,,,,,,,,,,,,,,,,,,,,,,,,0.279595136642,,,,,,,,,2018_Jan_30_0936,29.9765722266,AudVis-Working,1,AudVis-01
stimuli/dog.png,stimuli/cuckooClock.png,stimuli/fireworks.png,stimuli/deskBell.png,stimuli/ghost.png,stimuli/cow.png,stimuli/harp.png,stimuli/cat.png,stimuli/square.png,stimuli/chimp.png,stimuli/carHorn.png,stimuli/bowling.png,stimuli/bird.png,stimuli/applause.png,stimuli/bugle.png,stimuli/bird.ogg,stimuli/bell.png,stimuli/baby.png,1,14,30,3,,,,,0,0,0,0,,,,,,3,504.654261112,509.658674955,511.658734083,2.00005912781,511.65875411,513.877251148,2.21849703789,-0.052380952381,0.660952380952,1,0,0,pic2,,513.880571127,513.880571127,baby,519.381587982,5.50101685524,3,517.380571127,2,2018_Jan_30_0936,29.9765722266,AudVis-Working,1,AudVis-01
stimuli/dog.png,stimuli/cuckooClock.png,stimuli/fireworks.png,stimuli/deskBell.png,stimuli/ghost.png,stimuli/cow.png,stimuli/harp.png,stimuli/cat.png,stimuli/square.png,stimuli/chimp.png,stimuli/carHorn.png,stimuli/bowling.png,stimuli/bird.png,stimuli/applause.png,stimuli/bugle.png,stimuli/bird.ogg,stimuli/bell.png,stimuli/baby.png,1,14,30,3,,,,,,,,,,,,,,,,,,,,,,,,,,,,1.7814438343,,,,,,,,,2018_Jan_30_0936,29.9765722266,AudVis-Working,1,AudVis-01
stimuli/dog.png,stimuli/cuckooClock.png,stimuli/fireworks.png,stimuli/deskBell.png,stimuli/ghost.png,stimuli/cow.png,stimuli/harp.png,stimuli/cat.png,stimuli/square.png,stimuli/chimp.png,stimuli/carHorn.png,stimuli/bowling.png,stimuli/bird.png,stimuli/applause.png,stimuli/bugle.png,stimuli/carHorn.ogg,stimuli/bell.png,stimuli/baby.png,1,15,31,7,0,0,0,0,,,,,,,,,,2,521.151647091,525.152487993,527.153825998,2.00133800507,527.153846025,530.139873981,2.98602795601,-0.145238095238,0.0342857142857,0,0,0,pic2,,,,,,,,,,2018_Jan_30_0936,29.9765722266,AudVis-Working,1,AudVis-01
stimuli/dog.png,stimuli/cuckooClock.png,stimuli/fireworks.png,stimuli/deskBell.png,stimuli/ghost.png,stimuli/cow.png,stimuli/harp.png,stimuli/cat.png,stimuli/square.png,stimuli/chimp.png,stimuli/carHorn.png,stimuli/bowling.png,stimuli/bird.png,stimuli/applause.png,stimuli/bugle.png,stimuli/carHorn.ogg,stimuli/bell.png,stimuli/baby.png,1,15,31,7,,,,,,,,,,,,,,,,,,,,,,,,,,,,2.01263403893,,,,,,,,,2018_Jan_30_0936,29.9765722266,AudVis-Working,1,AudVis-01
stimuli/dog.png,stimuli/cuckooClock.png,stimuli/fireworks.png,stimuli/deskBell.png,stimuli/ghost.png,stimuli/cow.png,stimuli/harp.png,stimuli/cat.png,stimuli/square.png,stimuli/chimp.png,stimuli/carHorn.png,stimuli/bowling.png,stimuli/bird.png,stimuli/applause.png,stimuli/bugle.png,stimuli/cat.ogg,stimuli/bell.png,stimuli/baby.png,2,0,32,0,,,,,0,0,0,0,,,,,,4,533.125709057,539.129950047,541.131026983,2.00107693672,541.13104701,544.05076313,2.91971611977,0.35119047619,0.641904761905,1,0,0,pic4,,544.054195166,544.054195166,bird,549.554568052,5.50037288666,3,547.554195166,2,2018_Jan_30_0936,29.9765722266,AudVis-Working,1,AudVis-01
stimuli/dog.png,stimuli/cuckooClock.png,stimuli/fireworks.png,stimuli/deskBell.png,stimuli/ghost.png,stimuli/cow.png,stimuli/harp.png,stimuli/cat.png,stimuli/square.png,stimuli/chimp.png,stimuli/carHorn.png,stimuli/bowling.png,stimuli/bird.png,stimuli/applause.png,stimuli/bugle.png,stimuli/cat.ogg,stimuli/bell.png,stimuli/baby.png,2,0,32,0,,,,,,,,,,,,,,,,,,,,,,,,,,,,0.079206943512,,,,,,,,,2018_Jan_30_0936,29.9765722266,AudVis-Working,1,AudVis-01
stimuli/dog.png,stimuli/cuckooClock.png,stimuli/fireworks.png,stimuli/deskBell.png,stimuli/ghost.png,stimuli/cow.png,stimuli/harp.png,stimuli/cat.png,stimuli/square.png,stimuli/chimp.png,stimuli/carHorn.png,stimuli/bowling.png,stimuli/bird.png,stimuli/applause.png,stimuli/bugle.png,stimuli/bugle.ogg,stimuli/bell.png,stimuli/baby.png,2,1,33,5,,,,,0,0,0,0,,,,,,1,549.62313199,552.623382092,554.62454915,2.00116705894,554.624570131,555.243554115,0.618983983994,-0.135714285714,0.321904761905,1,0,0,pic6,,555.24684,555.24684,bugle,560.746315956,5.49947595596,3,558.74684,2,2018_Jan_30_0936,29.9765722266,AudVis-Working,1,AudVis-01
stimuli/dog.png,stimuli/cuckooClock.png,stimuli/fireworks.png,stimuli/deskBell.png,stimuli/ghost.png,stimuli/cow.png,stimuli/harp.png,stimuli/cat.png,stimuli/square.png,stimuli/chimp.png,stimuli/carHorn.png,stimuli/bowling.png,stimuli/bird.png,stimuli/applause.png,stimuli/bugle.png,stimuli/bugle.ogg,stimuli/bell.png,stimuli/baby.png,2,1,33,5,,,,,,,,,,,,,,,,,,,,,,,,,,,,5.37984895706,,,,,,,,,2018_Jan_30_0936,29.9765722266,AudVis-Working,1,AudVis-01
stimuli/dog.png,stimuli/cuckooClock.png,stimuli/fireworks.png,stimuli/deskBell.png,stimuli/ghost.png,stimuli/cow.png,stimuli/harp.png,stimuli/cat.png,stimuli/square.png,stimuli/chimp.png,stimuli/carHorn.png,stimuli/bowling.png,stimuli/bird.png,stimuli/applause.png,stimuli/bugle.png,stimuli/dog.ogg,stimuli/bell.png,stimuli/baby.png,2,2,34,10,,,,,0,0,0,0,,,,,,1,566.117462158,569.11915493,571.120450974,2.0012960434,571.120481014,571.80460906,0.684128046036,0.0785714285714,-0.0190476190476,1,0,0,pic11,,571.80803895,571.80803895,dog,577.310137987,5.50209903717,3,575.30803895,2,2018_Jan_30_0936,29.9765722266,AudVis-Working,1,AudVis-01
stimuli/dog.png,stimuli/cuckooClock.png,stimuli/fireworks.png,stimuli/deskBell.png,stimuli/ghost.png,stimuli/cow.png,stimuli/harp.png,stimuli/cat.png,stimuli/square.png,stimuli/chimp.png,stimuli/carHorn.png,stimuli/bowling.png,stimuli/bird.png,stimuli/applause.png,stimuli/bugle.png,stimuli/dog.ogg,stimuli/bell.png,stimuli/baby.png,2,2,34,10,,,,,,,,,,,,,,,,,,,,,,,,,,,,5.31457591057,,,,,,,,,2018_Jan_30_0936,29.9765722266,AudVis-Working,1,AudVis-01
stimuli/dog.png,stimuli/cuckooClock.png,stimuli/fireworks.png,stimuli/deskBell.png,stimuli/ghost.png,stimuli/cow.png,stimuli/harp.png,stimuli/cat.png,stimuli/square.png,stimuli/chimp.png,stimuli/carHorn.png,stimuli/bowling.png,stimuli/bird.png,stimuli/applause.png,stimuli/bugle.png,stimuli/baby.ogg,stimuli/bell.png,stimuli/baby.png,2,3,35,1,,,,,0,0,0,0,,,,,,1,582.613245964,585.614943027,587.617848158,2.00290513039,587.617867947,589.136038065,1.51817011833,-0.140476190476,0.601904761905,1,0,0,pic2,,589.139318943,589.139318943,baby,594.637834072,5.49851512909,3,592.639318943,2,2018_Jan_30_0936,29.9765722266,AudVis-Working,1,AudVis-01
stimuli/dog.png,stimuli/cuckooClock.png,stimuli/fireworks.png,stimuli/deskBell.png,stimuli/ghost.png,stimuli/cow.png,stimuli/harp.png,stimuli/cat.png,stimuli/square.png,stimuli/chimp.png,stimuli/carHorn.png,stimuli/bowling.png,stimuli/bird.png,stimuli/applause.png,stimuli/bugle.png,stimuli/baby.ogg,stimuli/bell.png,stimuli/baby.png,2,3,35,1,,,,,,,,,,,,,,,,,,,,,,,,,,,,4.47892475128,,,,,,,,,2018_Jan_30_0936,29.9765722266,AudVis-Working,1,AudVis-01
stimuli/dog.png,stimuli/cuckooClock.png,stimuli/fireworks.png,stimuli/deskBell.png,stimuli/ghost.png,stimuli/cow.png,stimuli/harp.png,stimuli/cat.png,stimuli/square.png,stimuli/chimp.png,stimuli/carHorn.png,stimuli/bowling.png,stimuli/bird.png,stimuli/applause.png,stimuli/bugle.png,stimuli/bird.ogg,stimuli/bell.png,stimuli/baby.png,2,4,36,3,,,,,0,0,0,0,,,,,,3,599.109692097,604.112375975,606.113716125,2.00134015083,606.113734961,606.932595015,0.818860054016,0.29880952381,0.529523809524,1,0,0,pic4,,606.93601203,606.93601203,bird,612.435719013,5.49970698357,3,610.43601203,2,2018_Jan_30_0936,29.9765722266,AudVis-Working,1,AudVis-01
stimuli/dog.png,stimuli/cuckooClock.png,stimuli/fireworks.png,stimuli/deskBell.png,stimuli/ghost.png,stimuli/cow.png,stimuli/harp.png,stimuli/cat.png,stimuli/square.png,stimuli/chimp.png,stimuli/carHorn.png,stimuli/bowling.png,stimuli/bird.png,stimuli/applause.png,stimuli/bugle.png,stimuli/bird.ogg,stimuli/bell.png,stimuli/baby.png,2,4,36,3,,,,,,,,,,,,,,,,,,,,,,,,,,,,3.17979979515,,,,,,,,,2018_Jan_30_0936,29.9765722266,AudVis-Working,1,AudVis-01
stimuli/dog.png,stimuli/cuckooClock.png,stimuli/fireworks.png,stimuli/deskBell.png,stimuli/ghost.png,stimuli/cow.png,stimuli/harp.png,stimuli/cat.png,stimuli/square.png,stimuli/chimp.png,stimuli/carHorn.png,stimuli/bowling.png,stimuli/bird.png,stimuli/applause.png,stimuli/bugle.png,stimuli/cuckooClock.ogg,stimuli/bell.png,stimuli/baby.png,2,5,37,9,,,,,0,0,0,0,,,,,,2,615.60633111,619.608920097,621.608940125,2.00002002716,621.60895896,622.260044098,0.651085138321,-0.0809523809524,0.0361904761905,1,0,0,pic10,,622.263218164,622.263218164,cuckooClock,627.763741016,5.50052285194,3,625.763218164,2,2018_Jan_30_0936,29.9765722266,AudVis-Working,1,AudVis-01
stimuli/dog.png,stimuli/cuckooClock.png,stimuli/fireworks.png,stimuli/deskBell.png,stimuli/ghost.png,stimuli/cow.png,stimuli/harp.png,stimuli/cat.png,stimuli/square.png,stimuli/chimp.png,stimuli/carHorn.png,stimuli/bowling.png,stimuli/bird.png,stimuli/applause.png,stimuli/bugle.png,stimuli/cuckooClock.ogg,stimuli/bell.png,stimuli/baby.png,2,5,37,9,,,,,,,,,,,,,,,,,,,,,,,,,,,,4.34889483452,,,,,,,,,2018_Jan_30_0936,29.9765722266,AudVis-Working,1,AudVis-01
stimuli/dog.png,stimuli/cuckooClock.png,stimuli/fireworks.png,stimuli/deskBell.png,stimuli/ghost.png,stimuli/cow.png,stimuli/harp.png,stimuli/cat.png,stimuli/square.png,stimuli/chimp.png,stimuli/carHorn.png,stimuli/bowling.png,stimuli/bird.png,stimuli/applause.png,stimuli/bugle.png,stimuli/harp.ogg,stimuli/bell.png,stimuli/baby.png,2,6,38,15,,,,,0,0,0,0,,,,,,1,632.102210045,635.102571011,637.103830099,2.00125908852,637.103848934,639.356477022,2.252628088,0.314285714286,-0.0514285714286,1,0,0,pic12,,639.359920979,639.359920979,deskBell,644.859905005,5.49998402596,3,642.859920979,2,2018_Jan_30_0936,29.9765722266,AudVis-Working,1,AudVis-01
stimuli/dog.png,stimuli/cuckooClock.png,stimuli/fireworks.png,stimuli/deskBell.png,stimuli/ghost.png,stimuli/cow.png,stimuli/harp.png,stimuli/cat.png,stimuli/square.png,stimuli/chimp.png,stimuli/carHorn.png,stimuli/bowling.png,stimuli/bird.png,stimuli/applause.png,stimuli/bugle.png,stimuli/harp.ogg,stimuli/bell.png,stimuli/baby.png,2,6,38,15,,,,,,,,,,,,,,,,,,,,,,,,,,,,3.74611282349,,,,,,,,,2018_Jan_30_0936,29.9765722266,AudVis-Working,1,AudVis-01
stimuli/dog.png,stimuli/cuckooClock.png,stimuli/fireworks.png,stimuli/deskBell.png,stimuli/ghost.png,stimuli/cow.png,stimuli/harp.png,stimuli/cat.png,stimuli/square.png,stimuli/chimp.png,stimuli/carHorn.png,stimuli/bowling.png,stimuli/bird.png,stimuli/applause.png,stimuli/bugle.png,stimuli/bell.ogg,stimuli/bell.png,stimuli/baby.png,2,7,39,2,,,,,0,0,0,0,,,,,,4,648.596855164,654.600675106,656.602163076,2.00148797035,656.602183104,658.320146084,1.71796298027,0.238095238095,-0.304761904762,1,0,0,pic12,,658.32367897,658.32367897,deskBell,663.825425148,5.50174617767,3,661.82367897,2,2018_Jan_30_0936,29.9765722266,AudVis-Working,1,AudVis-01
stimuli/dog.png,stimuli/cuckooClock.png,stimuli/fireworks.png,stimuli/deskBell.png,stimuli/ghost.png,stimuli/cow.png,stimuli/harp.png,stimuli/cat.png,stimuli/square.png,stimuli/chimp.png,stimuli/carHorn.png,stimuli/bowling.png,stimuli/bird.png,stimuli/applause.png,stimuli/bugle.png,stimuli/bell.ogg,stimuli/bell.png,stimuli/baby.png,2,7,39,2,,,,,,,,,,,,,,,,,,,,,,,,,,,,1.28054904938,,,,,,,,,2018_Jan_30_0936,29.9765722266,AudVis-Working,1,AudVis-01
stimuli/dog.png,stimuli/cuckooClock.png,stimuli/fireworks.png,stimuli/deskBell.png,stimuli/ghost.png,stimuli/cow.png,stimuli/harp.png,stimuli/cat.png,stimuli/square.png,stimuli/chimp.png,stimuli/carHorn.png,stimuli/bowling.png,stimuli/bird.png,stimuli/applause.png,stimuli/bugle.png,stimuli/carHorn.ogg,stimuli/bell.png,stimuli/baby.png,2,8,40,7,0,0,0,0,,,,,,,,,,3,665.094058037,670.095716953,672.097104073,2.00138711929,672.0971241,675.084499121,2.98737502098,-0.189285714286,0.266666666667,0,0,0,pic12,,,,,,,,,,2018_Jan_30_0936,29.9765722266,AudVis-Working,1,AudVis-01
stimuli/dog.png,stimuli/cuckooClock.png,stimuli/fireworks.png,stimuli/deskBell.png,stimuli/ghost.png,stimuli/cow.png,stimuli/harp.png,stimuli/cat.png,stimuli/square.png,stimuli/chimp.png,stimuli/carHorn.png,stimuli/bowling.png,stimuli/bird.png,stimuli/applause.png,stimuli/bugle.png,stimuli/carHorn.ogg,stimuli/bell.png,stimuli/baby.png,2,8,40,7,,,,,,,,,,,,,,,,,,,,,,,,,,,,1.01123785973,,,,,,,,,2018_Jan_30_0936,29.9765722266,AudVis-Working,1,AudVis-01
stimuli/dog.png,stimuli/cuckooClock.png,stimuli/fireworks.png,stimuli/deskBell.png,stimuli/ghost.png,stimuli/cow.png,stimuli/harp.png,stimuli/cat.png,stimuli/square.png,stimuli/chimp.png,stimuli/carHorn.png,stimuli/bowling.png,stimuli/bird.png,stimuli/applause.png,stimuli/bugle.png,stimuli/deskBell.ogg,stimuli/bell.png,stimuli/baby.png,2,9,41,11,,,,,0,0,0,0,,,,,,2,677.084990978,681.087435007,683.089857101,2.00242209435,683.089875937,683.740421057,0.650545120239,0.334523809524,-0.0914285714286,1,0,0,pic12,,683.743971109,683.743971109,deskBell,689.244991064,5.50101995468,3,687.243971109,2,2018_Jan_30_0936,29.9765722266,AudVis-Working,1,AudVis-01
stimuli/dog.png,stimuli/cuckooClock.png,stimuli/fireworks.png,stimuli/deskBell.png,stimuli/ghost.png,stimuli/cow.png,stimuli/harp.png,stimuli/cat.png,stimuli/square.png,stimuli/chimp.png,stimuli/carHorn.png,stimuli/bowling.png,stimuli/bird.png,stimuli/applause.png,stimuli/bugle.png,stimuli/deskBell.ogg,stimuli/bell.png,stimuli/baby.png,2,9,41,11,,,,,,,,,,,,,,,,,,,,,,,,,,,,4.34703278542,,,,,,,,,2018_Jan_30_0936,29.9765722266,AudVis-Working,1,AudVis-01
stimuli/dog.png,stimuli/cuckooClock.png,stimuli/fireworks.png,stimuli/deskBell.png,stimuli/ghost.png,stimuli/cow.png,stimuli/harp.png,stimuli/cat.png,stimuli/square.png,stimuli/chimp.png,stimuli/carHorn.png,stimuli/bowling.png,stimuli/bird.png,stimuli/applause.png,stimuli/bugle.png,stimuli/bowling.ogg,stimuli/bell.png,stimuli/baby.png,2,10,42,4,0,0,0,0,,,,,,,,,,4,693.580980062,699.584746122,701.586138964,2.00139284134,701.586158991,704.572025061,2.98586606979,-0.291666666667,0.194285714286,0,0,0,pic12,,,,,,,,,,2018_Jan_30_0936,29.9765722266,AudVis-Working,1,AudVis-01
stimuli/dog.png,stimuli/cuckooClock.png,stimuli/fireworks.png,stimuli/deskBell.png,stimuli/ghost.png,stimuli/cow.png,stimuli/harp.png,stimuli/cat.png,stimuli/square.png,stimuli/chimp.png,stimuli/carHorn.png,stimuli/bowling.png,stimuli/bird.png,stimuli/applause.png,stimuli/bugle.png,stimuli/bowling.ogg,stimuli/bell.png,stimuli/baby.png,2,10,42,4,,,,,,,,,,,,,,,,,,,,,,,,,,,,0.0127410888672,,,,,,,,,2018_Jan_30_0936,29.9765722266,AudVis-Working,1,AudVis-01
stimuli/dog.png,stimuli/cuckooClock.png,stimuli/fireworks.png,stimuli/deskBell.png,stimuli/ghost.png,stimuli/cow.png,stimuli/harp.png,stimuli/cat.png,stimuli/square.png,stimuli/chimp.png,stimuli/carHorn.png,stimuli/bowling.png,stimuli/bird.png,stimuli/applause.png,stimuli/bugle.png,stimuli/ghost.ogg,stimuli/bell.png,stimuli/baby.png,2,11,43,14,,,,,0,0,0,0,,,,,,4,705.557220936,711.560652018,713.563392162,2.00274014473,713.563411951,714.01097703,0.447565078735,0.132142857143,-0.377142857143,1,0,0,pic15,,714.014313936,714.014313936,ghost,719.501709938,5.48739600182,3,717.514313936,2,2018_Jan_30_0936,29.9765722266,AudVis-Working,1,AudVis-01
stimuli/dog.png,stimuli/cuckooClock.png,stimuli/fireworks.png,stimuli/deskBell.png,stimuli/ghost.png,stimuli/cow.png,stimuli/harp.png,stimuli/cat.png,stimuli/square.png,stimuli/chimp.png,stimuli/carHorn.png,stimuli/bowling.png,stimuli/bird.png,stimuli/applause.png,stimuli/bugle.png,stimuli/ghost.ogg,stimuli/bell.png,stimuli/baby.png,2,11,43,14,,,,,,,,,,,,,,,,,,,,,,,,,,,,2.54969477654,,,,,,,,,2018_Jan_30_0936,29.9765722266,AudVis-Working,1,AudVis-01
stimuli/dog.png,stimuli/cuckooClock.png,stimuli/fireworks.png,stimuli/deskBell.png,stimuli/ghost.png,stimuli/cow.png,stimuli/harp.png,stimuli/cat.png,stimuli/square.png,stimuli/chimp.png,stimuli/carHorn.png,stimuli/bowling.png,stimuli/bird.png,stimuli/applause.png,stimuli/bugle.png,stimuli/applause.ogg,stimuli/bell.png,stimuli/baby.png,2,12,44,6,,,,,0,0,0,0,,,,,,2,722.035779953,726.038156986,728.03945899,2.00130200386,728.039485931,729.192088127,1.15260219574,0.334523809524,0.329523809524,1,0,0,pic8,,729.19552803,729.19552803,carHorn,734.695271015,5.49974298477,3,732.69552803,2,2018_Jan_30_0936,29.9765722266,AudVis-Working,1,AudVis-01
stimuli/dog.png,stimuli/cuckooClock.png,stimuli/fireworks.png,stimuli/deskBell.png,stimuli/ghost.png,stimuli/cow.png,stimuli/harp.png,stimuli/cat.png,stimuli/square.png,stimuli/chimp.png,stimuli/carHorn.png,stimuli/bowling.png,stimuli/bird.png,stimuli/applause.png,stimuli/bugle.png,stimuli/applause.ogg,stimuli/bell.png,stimuli/baby.png,2,12,44,6,,,,,,,,,,,,,,,,,,,,,,,,,,,,3.8460958004,,,,,,,,,2018_Jan_30_0936,29.9765722266,AudVis-Working,1,AudVis-01
stimuli/dog.png,stimuli/cuckooClock.png,stimuli/fireworks.png,stimuli/deskBell.png,stimuli/ghost.png,stimuli/cow.png,stimuli/harp.png,stimuli/cat.png,stimuli/square.png,stimuli/chimp.png,stimuli/carHorn.png,stimuli/bowling.png,stimuli/bird.png,stimuli/applause.png,stimuli/bugle.png,stimuli/cow.ogg,stimuli/bell.png,stimuli/baby.png,2,13,45,13,0,0,0,0,,,,,,,,,,1,738.531542063,741.533298016,743.5346241,2.00132608414,743.534647942,746.537023067,3.00237512589,-0.0738095238095,0.0304761904762,0,0,0,pic8,,,,,,,,,,2018_Jan_30_0936,29.9765722266,AudVis-Working,1,AudVis-01
stimuli/dog.png,stimuli/cuckooClock.png,stimuli/fireworks.png,stimuli/deskBell.png,stimuli/ghost.png,stimuli/cow.png,stimuli/harp.png,stimuli/cat.png,stimuli/square.png,stimuli/chimp.png,stimuli/carHorn.png,stimuli/bowling.png,stimuli/bird.png,stimuli/applause.png,stimuli/bugle.png,stimuli/cow.ogg,stimuli/bell.png,stimuli/baby.png,2,13,45,13,,,,,,,,,,,,,,,,,,,,,,,,,,,,2.99629878998,,,,,,,,,2018_Jan_30_0936,29.9765722266,AudVis-Working,1,AudVis-01
stimuli/dog.png,stimuli/cuckooClock.png,stimuli/fireworks.png,stimuli/deskBell.png,stimuli/ghost.png,stimuli/cow.png,stimuli/harp.png,stimuli/cat.png,stimuli/square.png,stimuli/chimp.png,stimuli/carHorn.png,stimuli/bowling.png,stimuli/bird.png,stimuli/applause.png,stimuli/bugle.png,stimuli/fireworks.ogg,stimuli/bell.png,stimuli/baby.png,2,14,46,12,,,,,0,0,0,0,,,,,,2,750.524076939,754.526555061,756.528885126,2.00233006477,756.528906107,757.581851959,1.05294585228,-0.286904761905,-0.253333333333,1,0,0,pic13,,757.587367058,757.587367058,fireworks,763.084511995,5.49714493752,3,761.087367058,2,2018_Jan_30_0936,29.9765722266,AudVis-Working,1,AudVis-01
stimuli/dog.png,stimuli/cuckooClock.png,stimuli/fireworks.png,stimuli/deskBell.png,stimuli/ghost.png,stimuli/cow.png,stimuli/harp.png,stimuli/cat.png,stimuli/square.png,stimuli/chimp.png,stimuli/carHorn.png,stimuli/bowling.png,stimuli/bird.png,stimuli/applause.png,stimuli/bugle.png,stimuli/fireworks.ogg,stimuli/bell.png,stimuli/baby.png,2,14,46,12,,,,,,,,,,,,,,,,,,,,,,,,,,,,3.94472408295,,,,,,,,,2018_Jan_30_0936,29.9765722266,AudVis-Working,1,AudVis-01
stimuli/dog.png,stimuli/cuckooClock.png,stimuli/fireworks.png,stimuli/deskBell.png,stimuli/ghost.png,stimuli/cow.png,stimuli/harp.png,stimuli/cat.png,stimuli/square.png,stimuli/chimp.png,stimuli/carHorn.png,stimuli/bowling.png,stimuli/bird.png,stimuli/applause.png,stimuli/bugle.png,stimuli/chimp.ogg,stimuli/bell.png,stimuli/baby.png,2,15,47,8,,,,,0,0,0,0,,,,,,3,767.021345139,772.023030043,774.02463913,2.00160908699,774.024659157,776.108891964,2.08423280716,-0.27619047619,0.270476190476,1,0,0,pic5,,776.112074137,776.112074137,bowling,781.597257137,5.48518300056,3,779.612074137,2,2018_Jan_30_0936,29.9765722266,AudVis-Working,1,AudVis-01
stimuli/dog.png,stimuli/cuckooClock.png,stimuli/fireworks.png,stimuli/deskBell.png,stimuli/ghost.png,stimuli/cow.png,stimuli/harp.png,stimuli/cat.png,stimuli/square.png,stimuli/chimp.png,stimuli/carHorn.png,stimuli/bowling.png,stimuli/bird.png,stimuli/applause.png,stimuli/bugle.png,stimuli/chimp.ogg,stimuli/bell.png,stimuli/baby.png,2,15,47,8,,,,,,,,,,,,,,,,,,,,,,,,,,,,1.91415810585,,,,,,,,,2018_Jan_30_0936,29.9765722266,AudVis-Working,1,AudVis-01
stimuli/dog.png,stimuli/cuckooClock.png,stimuli/fireworks.png,stimuli/deskBell.png,stimuli/ghost.png,stimuli/cow.png,stimuli/harp.png,stimuli/cat.png,stimuli/square.png,stimuli/chimp.png,stimuli/carHorn.png,stimuli/bowling.png,stimuli/bird.png,stimuli/applause.png,stimuli/bugle.png,stimuli/cat.ogg,stimuli/bell.png,stimuli/baby.png,3,0,48,0,,,,,0,0,0,0,,,,,,3,783.500672102,788.503709078,790.504989147,2.00128006935,790.505012989,791.254519939,0.749506950378,-0.260714285714,0.645714285714,1,0,0,pic1,,791.257650137,791.257650137,cat,796.742072105,5.48442196846,3,794.757650137,2,2018_Jan_30_0936,29.9765722266,AudVis-Working,1,AudVis-01
stimuli/dog.png,stimuli/cuckooClock.png,stimuli/fireworks.png,stimuli/deskBell.png,stimuli/ghost.png,stimuli/cow.png,stimuli/harp.png,stimuli/cat.png,stimuli/square.png,stimuli/chimp.png,stimuli/carHorn.png,stimuli/bowling.png,stimuli/bird.png,stimuli/applause.png,stimuli/bugle.png,stimuli/cat.ogg,stimuli/bell.png,stimuli/baby.png,3,0,48,0,,,,,,,,,,,,,,,,,,,,,,,,,,,,3.24921298027,,,,,,,,,2018_Jan_30_0936,29.9765722266,AudVis-Working,1,AudVis-01
stimuli/dog.png,stimuli/cuckooClock.png,stimuli/fireworks.png,stimuli/deskBell.png,stimuli/ghost.png,stimuli/cow.png,stimuli/harp.png,stimuli/cat.png,stimuli/square.png,stimuli/chimp.png,stimuli/carHorn.png,stimuli/bowling.png,stimuli/bird.png,stimuli/applause.png,stimuli/bugle.png,stimuli/harp.ogg,stimuli/bell.png,stimuli/baby.png,3,1,49,15,,,,,0,0,0,0,,,,,,2,799.977453947,803.982182026,805.982100964,1.99991893768,805.98211813,808.167143106,2.18502497673,0.115476190476,0.605714285714,1,0,0,pic3,,808.170536995,808.170536995,bell,813.671448946,5.50091195107,3,811.670536995,2,2018_Jan_30_0936,29.9765722266,AudVis-Working,1,AudVis-01
stimuli/dog.png,stimuli/cuckooClock.png,stimuli/fireworks.png,stimuli/deskBell.png,stimuli/ghost.png,stimuli/cow.png,stimuli/harp.png,stimuli/cat.png,stimuli/square.png,stimuli/chimp.png,stimuli/carHorn.png,stimuli/bowling.png,stimuli/bird.png,stimuli/applause.png,stimuli/bugle.png,stimuli/harp.ogg,stimuli/bell.png,stimuli/baby.png,3,1,49,15,,,,,,,,,,,,,,,,,,,,,,,,,,,,2.81505608559,,,,,,,,,2018_Jan_30_0936,29.9765722266,AudVis-Working,1,AudVis-01
stimuli/dog.png,stimuli/cuckooClock.png,stimuli/fireworks.png,stimuli/deskBell.png,stimuli/ghost.png,stimuli/cow.png,stimuli/harp.png,stimuli/cat.png,stimuli/square.png,stimuli/chimp.png,stimuli/carHorn.png,stimuli/bowling.png,stimuli/bird.png,stimuli/applause.png,stimuli/bugle.png,stimuli/cow.ogg,stimuli/bell.png,stimuli/baby.png,3,2,50,13,,,,,0,0,0,0,,,,,,3,816.474199057,821.477220058,823.478645086,2.00142502785,823.478678942,826.299055099,2.82037615776,0.0940476190476,0.234285714286,1,0,0,pic7,,826.302332163,826.302332163,applause,831.801985025,5.49965286255,3,829.802332163,2,2018_Jan_30_0936,29.9765722266,AudVis-Working,1,AudVis-01
stimuli/dog.png,stimuli/cuckooClock.png,stimuli/fireworks.png,stimuli/deskBell.png,stimuli/ghost.png,stimuli/cow.png,stimuli/harp.png,stimuli/cat.png,stimuli/square.png,stimuli/chimp.png,stimuli/carHorn.png,stimuli/bowling.png,stimuli/bird.png,stimuli/applause.png,stimuli/bugle.png,stimuli/cow.ogg,stimuli/bell.png,stimuli/baby.png,3,2,50,13,,,,,,,,,,,,,,,,,,,,,,,,,,,,1.17819881439,,,,,,,,,2018_Jan_30_0936,29.9765722266,AudVis-Working,1,AudVis-01
stimuli/dog.png,stimuli/cuckooClock.png,stimuli/fireworks.png,stimuli/deskBell.png,stimuli/ghost.png,stimuli/cow.png,stimuli/harp.png,stimuli/cat.png,stimuli/square.png,stimuli/chimp.png,stimuli/carHorn.png,stimuli/bowling.png,stimuli/bird.png,stimuli/applause.png,stimuli/bugle.png,stimuli/bird.ogg,stimuli/bell.png,stimuli/baby.png,3,3,51,3,0,0,0,0,,,,,,,,,,2,832.969936132,836.972445965,838.973686934,2.0012409687,838.973711967,841.959640026,2.98592805862,-0.102380952381,0.628571428571,0,0,0,pic7,,,,,,,,,,2018_Jan_30_0936,29.9765722266,AudVis-Working,1,AudVis-01
stimuli/dog.png,stimuli/cuckooClock.png,stimuli/fireworks.png,stimuli/deskBell.png,stimuli/ghost.png,stimuli/cow.png,stimuli/harp.png,stimuli/cat.png,stimuli/square.png,stimuli/chimp.png,stimuli/carHorn.png,stimuli/bowling.png,stimuli/bird.png,stimuli/applause.png,stimuli/bugle.png,stimuli/bird.ogg,stimuli/bell.png,stimuli/baby.png,3,3,51,3,,,,,,,,,,,,,,,,,,,,,,,,,,,,2.01283097267,,,,,,,,,2018_Jan_30_0936,29.9765722266,AudVis-Working,1,AudVis-01
stimuli/dog.png,stimuli/cuckooClock.png,stimuli/fireworks.png,stimuli/deskBell.png,stimuli/ghost.png,stimuli/cow.png,stimuli/harp.png,stimuli/cat.png,stimuli/square.png,stimuli/chimp.png,stimuli/carHorn.png,stimuli/bowling.png,stimuli/bird.png,stimuli/applause.png,stimuli/bugle.png,stimuli/deskBell.ogg,stimuli/bell.png,stimuli/baby.png,3,4,52,11,,,,,0,0,0,0,,,,,,4,844.945584059,850.94959116,852.950817108,2.00122594833,852.950837135,853.434910059,0.48407292366,0.284523809524,-0.0457142857143,1,0,0,pic12,,853.43840003,853.43840003,deskBell,858.939365149,5.50096511841,3,856.93840003,2,2018_Jan_30_0936,29.9765722266,AudVis-Working,1,AudVis-01
stimuli/dog.png,stimuli/cuckooClock.png,stimuli/fireworks.png,stimuli/deskBell.png,stimuli/ghost.png,stimuli/cow.png,stimuli/harp.png,stimuli/cat.png,stimuli/square.png,stimuli/chimp.png,stimuli/carHorn.png,stimuli/bowling.png,stimuli/bird.png,stimuli/applause.png,stimuli/bugle.png,stimuli/deskBell.ogg,stimuli/bell.png,stimuli/baby.png,3,4,52,11,,,,,,,,,,,,,,,,,,,,,,,,,,,,2.51470112801,,,,,,,,,2018_Jan_30_0936,29.9765722266,AudVis-Working,1,AudVis-01
stimuli/dog.png,stimuli/cuckooClock.png,stimuli/fireworks.png,stimuli/deskBell.png,stimuli/ghost.png,stimuli/cow.png,stimuli/harp.png,stimuli/cat.png,stimuli/square.png,stimuli/chimp.png,stimuli/carHorn.png,stimuli/bowling.png,stimuli/bird.png,stimuli/applause.png,stimuli/bugle.png,stimuli/baby.ogg,stimuli/bell.png,stimuli/baby.png,3,5,53,1,,,,,0,0,0,0,,,,,,3,861.442816019,866.44521594,868.447481155,2.00226521492,868.44749999,869.965571165,1.51807117462,-0.0619047619048,0.659047619048,1,0,0,pic2,,869.96875,869.96875,baby,875.469649076,5.50089907646,3,873.46875,2,2018_Jan_30_0936,29.9765722266,AudVis-Working,1,AudVis-01
stimuli/dog.png,stimuli/cuckooClock.png,stimuli/fireworks.png,stimuli/deskBell.png,stimuli/ghost.png,stimuli/cow.png,stimuli/harp.png,stimuli/cat.png,stimuli/square.png,stimuli/chimp.png,stimuli/carHorn.png,stimuli/bowling.png,stimuli/bird.png,stimuli/applause.png,stimuli/bugle.png,stimuli/baby.ogg,stimuli/bell.png,stimuli/baby.png,3,5,53,1,,,,,,,,,,,,,,,,,,,,,,,,,,,,2.47966361046,,,,,,,,,2018_Jan_30_0936,29.9765722266,AudVis-Working,1,AudVis-01
stimuli/dog.png,stimuli/cuckooClock.png,stimuli/fireworks.png,stimuli/deskBell.png,stimuli/ghost.png,stimuli/cow.png,stimuli/harp.png,stimuli/cat.png,stimuli/square.png,stimuli/chimp.png,stimuli/carHorn.png,stimuli/bowling.png,stimuli/bird.png,stimuli/applause.png,stimuli/bugle.png,stimuli/dog.ogg,stimuli/bell.png,stimuli/baby.png,3,6,54,10,,,,,0,0,0,0,,,,,,3,877.938863039,882.940518141,884.94188714,2.00136899948,884.941907167,886.294587135,1.35267996788,0.0845238095238,-0.0285714285714,1,0,0,pic11,,886.297992945,886.297992945,dog,891.797418118,5.49942517281,3,889.797992945,2,2018_Jan_30_0936,29.9765722266,AudVis-Working,1,AudVis-01
stimuli/dog.png,stimuli/cuckooClock.png,stimuli/fireworks.png,stimuli/deskBell.png,stimuli/ghost.png,stimuli/cow.png,stimuli/harp.png,stimuli/cat.png,stimuli/square.png,stimuli/chimp.png,stimuli/carHorn.png,stimuli/bowling.png,stimuli/bird.png,stimuli/applause.png,stimuli/bugle.png,stimuli/dog.ogg,stimuli/bell.png,stimuli/baby.png,3,6,54,10,,,,,,,,,,,,,,,,,,,,,,,,,,,,2.64595103264,,,,,,,,,2018_Jan_30_0936,29.9765722266,AudVis-Working,1,AudVis-01
stimuli/dog.png,stimuli/cuckooClock.png,stimuli/fireworks.png,stimuli/deskBell.png,stimuli/ghost.png,stimuli/cow.png,stimuli/harp.png,stimuli/cat.png,stimuli/square.png,stimuli/chimp.png,stimuli/carHorn.png,stimuli/bowling.png,stimuli/bird.png,stimuli/applause.png,stimuli/bugle.png,stimuli/ghost.ogg,stimuli/bell.png,stimuli/baby.png,3,7,55,14,,,,,0,0,0,0,,,,,,1,894.434797049,897.434913158,899.437726021,2.0028128624,899.437747002,899.921717167,0.483970165253,0.0904761904762,-0.270476190476,1,0,0,pic15,,899.925106049,899.925106049,ghost,905.42447114,5.49936509132,3,903.425106049,2,2018_Jan_30_0936,29.9765722266,AudVis-Working,1,AudVis-01
stimuli/dog.png,stimuli/cuckooClock.png,stimuli/fireworks.png,stimuli/deskBell.png,stimuli/ghost.png,stimuli/cow.png,stimuli/harp.png,stimuli/cat.png,stimuli/square.png,stimuli/chimp.png,stimuli/carHorn.png,stimuli/bowling.png,stimuli/bird.png,stimuli/applause.png,stimuli/bugle.png,stimuli/ghost.ogg,stimuli/bell.png,stimuli/baby.png,3,7,55,14,,,,,,,,,,,,,,,,,,,,,,,,,,,,5.51321697235,,,,,,,,,2018_Jan_30_0936,29.9765722266,AudVis-Working,1,AudVis-01
stimuli/dog.png,stimuli/cuckooClock.png,stimuli/fireworks.png,stimuli/deskBell.png,stimuli/ghost.png,stimuli/cow.png,stimuli/harp.png,stimuli/cat.png,stimuli/square.png,stimuli/chimp.png,stimuli/carHorn.png,stimuli/bowling.png,stimuli/bird.png,stimuli/applause.png,stimuli/bugle.png,stimuli/chimp.ogg,stimuli/bell.png,stimuli/baby.png,3,8,56,8,,,,,0,0,0,0,,,,,,1,910.930685043,913.932108164,915.933606148,2.00149798393,915.933625937,916.517776966,0.584151029587,-0.35,-0.04,1,0,0,pic9,,916.520951033,916.520951033,chimp,922.020447969,5.4994969368,3,920.020951033,2,2018_Jan_30_0936,29.9765722266,AudVis-Working,1,AudVis-01
stimuli/dog.png,stimuli/cuckooClock.png,stimuli/fireworks.png,stimuli/deskBell.png,stimuli/ghost.png,stimuli/cow.png,stimuli/harp.png,stimuli/cat.png,stimuli/square.png,stimuli/chimp.png,stimuli/carHorn.png,stimuli/bowling.png,stimuli/bird.png,stimuli/applause.png,stimuli/bugle.png,stimuli/chimp.ogg,stimuli/bell.png,stimuli/baby.png,3,8,56,8,,,,,,,,,,,,,,,,,,,,,,,,,,,,5.41435098648,,,,,,,,,2018_Jan_30_0936,29.9765722266,AudVis-Working,1,AudVis-01
stimuli/dog.png,stimuli/cuckooClock.png,stimuli/fireworks.png,stimuli/deskBell.png,stimuli/ghost.png,stimuli/cow.png,stimuli/harp.png,stimuli/cat.png,stimuli/square.png,stimuli/chimp.png,stimuli/carHorn.png,stimuli/bowling.png,stimuli/bird.png,stimuli/applause.png,stimuli/bugle.png,stimuli/carHorn.ogg,stimuli/bell.png,stimuli/baby.png,3,9,57,7,,,,,0,0,0,0,,,,,,2,927.424731016,931.42880106,933.42891407,2.00011301041,933.428930998,934.147433996,0.718502998352,0.303571428571,0.337142857143,1,0,0,pic8,,934.150845051,934.150845051,carHorn,939.651749134,5.50090408325,3,937.650845051,2,2018_Jan_30_0936,29.9765722266,AudVis-Working,1,AudVis-01
stimuli/dog.png,stimuli/cuckooClock.png,stimuli/fireworks.png,stimuli/deskBell.png,stimuli/ghost.png,stimuli/cow.png,stimuli/harp.png,stimuli/cat.png,stimuli/square.png,stimuli/chimp.png,stimuli/carHorn.png,stimuli/bowling.png,stimuli/bird.png,stimuli/applause.png,stimuli/bugle.png,stimuli/carHorn.ogg,stimuli/bell.png,stimuli/baby.png,3,9,57,7,,,,,,,,,,,,,,,,,,,,,,,,,,,,4.28138399124,,,,,,,,,2018_Jan_30_0936,29.9765722266,AudVis-Working,1,AudVis-01
stimuli/dog.png,stimuli/cuckooClock.png,stimuli/fireworks.png,stimuli/deskBell.png,stimuli/ghost.png,stimuli/cow.png,stimuli/harp.png,stimuli/cat.png,stimuli/square.png,stimuli/chimp.png,stimuli/carHorn.png,stimuli/bowling.png,stimuli/bird.png,stimuli/applause.png,stimuli/bugle.png,stimuli/fireworks.ogg,stimuli/bell.png,stimuli/baby.png,3,10,58,12,,,,,0,0,0,0,,,,,,2,943.922326088,947.923365116,949.924517155,2.00115203857,949.92453599,952.57687211,2.65233612061,-0.290476190476,-0.390476190476,1,0,0,pic13,,952.58002305,952.58002305,fireworks,958.06595993,5.48593688011,3,956.08002305,2,2018_Jan_30_0936,29.9765722266,AudVis-Working,1,AudVis-01
stimuli/dog.png,stimuli/cuckooClock.png,stimuli/fireworks.png,stimuli/deskBell.png,stimuli/ghost.png,stimuli/cow.png,stimuli/harp.png,stimuli/cat.png,stimuli/square.png,stimuli/chimp.png,stimuli/carHorn.png,stimuli/bowling.png,stimuli/bird.png,stimuli/applause.png,stimuli/bugle.png,stimuli/fireworks.ogg,stimuli/bell.png,stimuli/baby.png,3,10,58,12,,,,,,,,,,,,,,,,,,,,,,,,,,,,2.34651184082,,,,,,,,,2018_Jan_30_0936,29.9765722266,AudVis-Working,1,AudVis-01
stimuli/dog.png,stimuli/cuckooClock.png,stimuli/fireworks.png,stimuli/deskBell.png,stimuli/ghost.png,stimuli/cow.png,stimuli/harp.png,stimuli/cat.png,stimuli/square.png,stimuli/chimp.png,stimuli/carHorn.png,stimuli/bowling.png,stimuli/bird.png,stimuli/applause.png,stimuli/bugle.png,stimuli/bowling.ogg,stimuli/bell.png,stimuli/baby.png,3,11,59,4,,,,,0,0,0,0,,,,,,1,960.401443005,963.402953148,965.404416084,2.0014629364,965.404435158,966.188635111,0.784199953079,-0.370238095238,0.339047619048,1,0,0,pic13,,966.19214797,966.19214797,fireworks,971.692626953,5.50047898293,3,969.69214797,2,2018_Jan_30_0936,29.9765722266,AudVis-Working,1,AudVis-01
stimuli/dog.png,stimuli/cuckooClock.png,stimuli/fireworks.png,stimuli/deskBell.png,stimuli/ghost.png,stimuli/cow.png,stimuli/harp.png,stimuli/cat.png,stimuli/square.png,stimuli/chimp.png,stimuli/carHorn.png,stimuli/bowling.png,stimuli/bird.png,stimuli/applause.png,stimuli/bugle.png,stimuli/bowling.ogg,stimuli/bell.png,stimuli/baby.png,3,11,59,4,,,,,,,,,,,,,,,,,,,,,,,,,,,,5.21433711052,,,,,,,,,2018_Jan_30_0936,29.9765722266,AudVis-Working,1,AudVis-01
stimuli/dog.png,stimuli/cuckooClock.png,stimuli/fireworks.png,stimuli/deskBell.png,stimuli/ghost.png,stimuli/cow.png,stimuli/harp.png,stimuli/cat.png,stimuli/square.png,stimuli/chimp.png,stimuli/carHorn.png,stimuli/bowling.png,stimuli/bird.png,stimuli/applause.png,stimuli/bugle.png,stimuli/applause.ogg,stimuli/bell.png,stimuli/baby.png,3,12,60,6,,,,,0,0,0,0,,,,,,2,976.897319078,980.898373127,982.90061903,2.00224590302,982.900639057,985.785414934,2.884775877,0.309523809524,0.533333333333,1,0,0,pic4,,985.78894496,985.78894496,bird,991.27304101,5.48409605026,3,989.28894496,2,2018_Jan_30_0936,29.9765722266,AudVis-Working,1,AudVis-01
stimuli/dog.png,stimuli/cuckooClock.png,stimuli/fireworks.png,stimuli/deskBell.png,stimuli/ghost.png,stimuli/cow.png,stimuli/harp.png,stimuli/cat.png,stimuli/square.png,stimuli/chimp.png,stimuli/carHorn.png,stimuli/bowling.png,stimuli/bird.png,stimuli/applause.png,stimuli/bugle.png,stimuli/applause.ogg,stimuli/bell.png,stimuli/baby.png,3,12,60,6,,,,,,,,,,,,,,,,,,,,,,,,,,,,2.11297821999,,,,,,,,,2018_Jan_30_0936,29.9765722266,AudVis-Working,1,AudVis-01
stimuli/dog.png,stimuli/cuckooClock.png,stimuli/fireworks.png,stimuli/deskBell.png,stimuli/ghost.png,stimuli/cow.png,stimuli/harp.png,stimuli/cat.png,stimuli/square.png,stimuli/chimp.png,stimuli/carHorn.png,stimuli/bowling.png,stimuli/bird.png,stimuli/applause.png,stimuli/bugle.png,stimuli/cuckooClock.ogg,stimuli/bell.png,stimuli/baby.png,3,13,61,9,,,,,0,0,0,0,,,,,,3,993.375,998.379590988,1000.38088703,2.0012960434,1000.38090515,1001.53069615,1.14979100227,-0.12380952381,-0.0457142857143,1,0,0,pic10,,1001.53390503,1001.53390503,cuckooClock,1007.01964808,5.48574304581,3,1005.03390503,2,2018_Jan_30_0936,29.9765722266,AudVis-Working,1,AudVis-01
stimuli/dog.png,stimuli/cuckooClock.png,stimuli/fireworks.png,stimuli/deskBell.png,stimuli/ghost.png,stimuli/cow.png,stimuli/harp.png,stimuli/cat.png,stimuli/square.png,stimuli/chimp.png,stimuli/carHorn.png,stimuli/bowling.png,stimuli/bird.png,stimuli/applause.png,stimuli/bugle.png,stimuli/cuckooClock.ogg,stimuli/bell.png,stimuli/baby.png,3,13,61,9,,,,,,,,,,,,,,,,,,,,,,,,,,,,2.84891295433,,,,,,,,,2018_Jan_30_0936,29.9765722266,AudVis-Working,1,AudVis-01
stimuli/dog.png,stimuli/cuckooClock.png,stimuli/fireworks.png,stimuli/deskBell.png,stimuli/ghost.png,stimuli/cow.png,stimuli/harp.png,stimuli/cat.png,stimuli/square.png,stimuli/chimp.png,stimuli/carHorn.png,stimuli/bowling.png,stimuli/bird.png,stimuli/applause.png,stimuli/bugle.png,stimuli/bell.ogg,stimuli/bell.png,stimuli/baby.png,3,14,62,2,,,,,0,0,0,0,,,,,,1,1009.85414314,1012.8568821,1014.85853601,2.00165390968,1014.85855699,1016.52532196,1.66676497459,0.113095238095,0.60380952381,1,0,0,pic3,,1016.52868104,1016.52868104,bell,1022.01296115,5.48428010941,3,1020.02868104,2,2018_Jan_30_0936,29.9765722266,AudVis-Working,1,AudVis-01
stimuli/dog.png,stimuli/cuckooClock.png,stimuli/fireworks.png,stimuli/deskBell.png,stimuli/ghost.png,stimuli/cow.png,stimuli/harp.png,stimuli/cat.png,stimuli/square.png,stimuli/chimp.png,stimuli/carHorn.png,stimuli/bowling.png,stimuli/bird.png,stimuli/applause.png,stimuli/bugle.png,stimuli/bell.ogg,stimuli/bell.png,stimuli/baby.png,3,14,62,2,,,,,,,,,,,,,,,,,,,,,,,,,,,,4.33158111572,,,,,,,,,2018_Jan_30_0936,29.9765722266,AudVis-Working,1,AudVis-01
stimuli/dog.png,stimuli/cuckooClock.png,stimuli/fireworks.png,stimuli/deskBell.png,stimuli/ghost.png,stimuli/cow.png,stimuli/harp.png,stimuli/cat.png,stimuli/square.png,stimuli/chimp.png,stimuli/carHorn.png,stimuli/bowling.png,stimuli/bird.png,stimuli/applause.png,stimuli/bugle.png,stimuli/bugle.ogg,stimuli/bell.png,stimuli/baby.png,3,15,63,5,,,,,0,0,0,0,,,,,,1,1026.35023999,1029.35313416,1031.35307908,1.99994492531,1031.35309601,1032.80572701,1.4526309967,-0.0869047619048,0.31619047619,1,0,0,pic6,,1032.80898714,1032.80898714,bugle,1038.30857301,5.49958586693,3,1036.30898714,2,2018_Jan_30_0936,29.9765722266,AudVis-Working,1,AudVis-01
stimuli/dog.png,stimuli/cuckooClock.png,stimuli/fireworks.png,stimuli/deskBell.png,stimuli/ghost.png,stimuli/cow.png,stimuli/harp.png,stimuli/cat.png,stimuli/square.png,stimuli/chimp.png,stimuli/carHorn.png,stimuli/bowling.png,stimuli/bird.png,stimuli/applause.png,stimuli/bugle.png,stimuli/bugle.ogg,stimuli/bell.png,stimuli/baby.png,3,15,63,5,,,,,,,,,,,,,,,,,,,,,,,,,,,,4.54742407799,,,,,,,,,2018_Jan_30_0936,29.9765722266,AudVis-Working,1,AudVis-01
